      Time   Azimuth   1P_Sine   2P_Sine   3P_Sine   4P_Sine
     (sec)     (deg)       (-)       (-)       (-)       (-)
    0.0000    0.0000    0.0000    0.0000    0.0000    0.0000
    0.0010    0.3600    0.0063    0.0126    0.0188    0.0251
    0.0020    0.7200    0.0126    0.0251    0.0377    0.0502
    0.0030    1.0800    0.0188    0.0377    0.0565    0.0753
    0.0040    1.4400    0.0251    0.0502    0.0753    0.1004
    0.0050    1.8000    0.0314    0.0628    0.0941    0.1253
    0.0060    2.1600    0.0377    0.0753    0.1129    0.1502
    0.0070    2.5200    0.0440    0.0879    0.1316    0.1750
    0.0080    2.8800    0.0502    0.1004    0.1502    0.1997
    0.0090    3.2400    0.0565    0.1129    0.1688    0.2243
    0.0100    3.6000    0.0628    0.1253    0.1874    0.2487
    0.0110    3.9600    0.0691    0.1378    0.2059    0.2730
    0.0120    4.3200    0.0753    0.1502    0.2243    0.2970
    0.0130    4.6800    0.0816    0.1626    0.2426    0.3209
    0.0140    5.0400    0.0879    0.1750    0.2608    0.3446
    0.0150    5.4000    0.0941    0.1874    0.2790    0.3681
    0.0160    5.7600    0.1004    0.1997    0.2970    0.3914
    0.0170    6.1200    0.1066    0.2120    0.3150    0.4144
    0.0180    6.4800    0.1129    0.2243    0.3328    0.4371
    0.0190    6.8400    0.1191    0.2365    0.3505    0.4596
    0.0200    7.2000    0.1253    0.2487    0.3681    0.4818
    0.0210    7.5600    0.1316    0.2608    0.3856    0.5036
    0.0220    7.9200    0.1378    0.2730    0.4029    0.5252
    0.0230    8.2800    0.1440    0.2850    0.4201    0.5464
    0.0240    8.6400    0.1502    0.2970    0.4371    0.5673
    0.0250    9.0000    0.1564    0.3090    0.4540    0.5878
    0.0260    9.3600    0.1626    0.3209    0.4707    0.6079
    0.0270    9.7200    0.1688    0.3328    0.4873    0.6277
    0.0280   10.0800    0.1750    0.3446    0.5036    0.6471
    0.0290   10.4400    0.1812    0.3564    0.5198    0.6660
    0.0300   10.8000    0.1874    0.3681    0.5358    0.6845
    0.0310   11.1600    0.1935    0.3798    0.5516    0.7026
    0.0320   11.5200    0.1997    0.3914    0.5673    0.7203
    0.0330   11.8800    0.2059    0.4029    0.5827    0.7375
    0.0340   12.2400    0.2120    0.4144    0.5979    0.7543
    0.0350   12.6000    0.2181    0.4258    0.6129    0.7705
    0.0360   12.9600    0.2243    0.4371    0.6277    0.7863
    0.0370   13.3200    0.2304    0.4484    0.6423    0.8016
    0.0380   13.6800    0.2365    0.4596    0.6566    0.8163
    0.0390   14.0400    0.2426    0.4707    0.6707    0.8306
    0.0400   14.4000    0.2487    0.4818    0.6845    0.8443
    0.0410   14.7600    0.2548    0.4927    0.6982    0.8575
    0.0420   15.1200    0.2608    0.5036    0.7115    0.8702
    0.0430   15.4800    0.2669    0.5144    0.7247    0.8823
    0.0440   15.8400    0.2730    0.5252    0.7375    0.8938
    0.0450   16.2000    0.2790    0.5358    0.7501    0.9048
    0.0460   16.5600    0.2850    0.5464    0.7624    0.9152
    0.0470   16.9200    0.2910    0.5569    0.7745    0.9251
    0.0480   17.2800    0.2970    0.5673    0.7863    0.9343
    0.0490   17.6400    0.3030    0.5776    0.7978    0.9430
    0.0500   18.0000    0.3090    0.5878    0.8090    0.9511
    0.0510   18.3600    0.3150    0.5979    0.8200    0.9585
    0.0520   18.7200    0.3209    0.6079    0.8306    0.9654
    0.0530   19.0800    0.3269    0.6179    0.8409    0.9716
    0.0540   19.4400    0.3328    0.6277    0.8510    0.9773
    0.0550   19.8000    0.3387    0.6374    0.8607    0.9823
    0.0560   20.1600    0.3446    0.6471    0.8702    0.9867
    0.0570   20.5200    0.3505    0.6566    0.8793    0.9905
    0.0580   20.8800    0.3564    0.6660    0.8881    0.9936
    0.0590   21.2400    0.3623    0.6753    0.8966    0.9961
    0.0600   21.6000    0.3681    0.6845    0.9048    0.9980
    0.0610   21.9600    0.3740    0.6937    0.9127    0.9993
    0.0620   22.3200    0.3798    0.7026    0.9202    0.9999
    0.0630   22.6800    0.3856    0.7115    0.9274    0.9999
    0.0640   23.0400    0.3914    0.7203    0.9343    0.9993
    0.0650   23.4000    0.3971    0.7290    0.9409    0.9980
    0.0660   23.7600    0.4029    0.7375    0.9471    0.9961
    0.0670   24.1200    0.4086    0.7459    0.9530    0.9936
    0.0680   24.4800    0.4144    0.7543    0.9585    0.9905
    0.0690   24.8400    0.4201    0.7624    0.9637    0.9867
    0.0700   25.2000    0.4258    0.7705    0.9686    0.9823
    0.0710   25.5600    0.4315    0.7785    0.9731    0.9773
    0.0720   25.9200    0.4371    0.7863    0.9773    0.9716
    0.0730   26.2800    0.4428    0.7940    0.9811    0.9654
    0.0740   26.6400    0.4484    0.8016    0.9846    0.9585
    0.0750   27.0000    0.4540    0.8090    0.9877    0.9511
    0.0760   27.3600    0.4596    0.8163    0.9905    0.9430
    0.0770   27.7200    0.4652    0.8235    0.9929    0.9343
    0.0780   28.0800    0.4707    0.8306    0.9950    0.9251
    0.0790   28.4400    0.4762    0.8375    0.9967    0.9152
    0.0800   28.8000    0.4818    0.8443    0.9980    0.9048
    0.0810   29.1600    0.4873    0.8510    0.9990    0.8938
    0.0820   29.5200    0.4927    0.8575    0.9997    0.8823
    0.0830   29.8800    0.4982    0.8639    1.0000    0.8702
    0.0840   30.2400    0.5036    0.8702    0.9999    0.8575
    0.0850   30.6000    0.5090    0.8763    0.9995    0.8443
    0.0860   30.9600    0.5144    0.8823    0.9987    0.8306
    0.0870   31.3200    0.5198    0.8881    0.9976    0.8163
    0.0880   31.6800    0.5252    0.8938    0.9961    0.8016
    0.0890   32.0400    0.5305    0.8994    0.9943    0.7863
    0.0900   32.4000    0.5358    0.9048    0.9921    0.7705
    0.0910   32.7600    0.5411    0.9101    0.9896    0.7543
    0.0920   33.1200    0.5464    0.9152    0.9867    0.7375
    0.0930   33.4800    0.5516    0.9202    0.9834    0.7203
    0.0940   33.8400    0.5569    0.9251    0.9799    0.7026
    0.0950   34.2000    0.5621    0.9298    0.9759    0.6845
    0.0960   34.5600    0.5673    0.9343    0.9716    0.6660
    0.0970   34.9200    0.5724    0.9387    0.9670    0.6471
    0.0980   35.2800    0.5776    0.9430    0.9620    0.6277
    0.0990   35.6400    0.5827    0.9471    0.9567    0.6079
    0.1000   36.0000    0.5878    0.9511    0.9511    0.5878
    0.1010   36.3600    0.5929    0.9549    0.9451    0.5673
    0.1020   36.7200    0.5979    0.9585    0.9387    0.5464
    0.1030   37.0800    0.6029    0.9620    0.9321    0.5252
    0.1040   37.4400    0.6079    0.9654    0.9251    0.5036
    0.1050   37.8000    0.6129    0.9686    0.9178    0.4818
    0.1060   38.1600    0.6179    0.9716    0.9101    0.4596
    0.1070   38.5200    0.6228    0.9745    0.9021    0.4371
    0.1080   38.8800    0.6277    0.9773    0.8938    0.4144
    0.1090   39.2400    0.6326    0.9799    0.8852    0.3914
    0.1100   39.6000    0.6374    0.9823    0.8763    0.3681
    0.1110   39.9600    0.6423    0.9846    0.8671    0.3446
    0.1120   40.3200    0.6471    0.9867    0.8575    0.3209
    0.1130   40.6800    0.6518    0.9887    0.8477    0.2970
    0.1140   41.0400    0.6566    0.9905    0.8375    0.2730
    0.1150   41.4000    0.6613    0.9921    0.8271    0.2487
    0.1160   41.7600    0.6660    0.9936    0.8163    0.2243
    0.1170   42.1200    0.6707    0.9950    0.8053    0.1997
    0.1180   42.4800    0.6753    0.9961    0.7940    0.1750
    0.1190   42.8400    0.6800    0.9972    0.7824    0.1502
    0.1200   43.2000    0.6845    0.9980    0.7705    0.1253
    0.1210   43.5600    0.6891    0.9987    0.7584    0.1004
    0.1220   43.9200    0.6937    0.9993    0.7459    0.0753
    0.1230   44.2800    0.6982    0.9997    0.7333    0.0502
    0.1240   44.6400    0.7026    0.9999    0.7203    0.0251
    0.1250   45.0000    0.7071    1.0000    0.7071    0.0000
    0.1260   45.3600    0.7115    0.9999    0.6937   -0.0251
    0.1270   45.7200    0.7159    0.9997    0.6800   -0.0502
    0.1280   46.0800    0.7203    0.9993    0.6660   -0.0753
    0.1290   46.4400    0.7247    0.9987    0.6518   -0.1004
    0.1300   46.8000    0.7290    0.9980    0.6374   -0.1253
    0.1310   47.1600    0.7333    0.9972    0.6228   -0.1502
    0.1320   47.5200    0.7375    0.9961    0.6079   -0.1750
    0.1330   47.8800    0.7417    0.9950    0.5929   -0.1997
    0.1340   48.2400    0.7459    0.9936    0.5776   -0.2243
    0.1350   48.6000    0.7501    0.9921    0.5621   -0.2487
    0.1360   48.9600    0.7543    0.9905    0.5464   -0.2730
    0.1370   49.3200    0.7584    0.9887    0.5305   -0.2970
    0.1380   49.6800    0.7624    0.9867    0.5144   -0.3209
    0.1390   50.0400    0.7665    0.9846    0.4982   -0.3446
    0.1400   50.4000    0.7705    0.9823    0.4818   -0.3681
    0.1410   50.7600    0.7745    0.9799    0.4652   -0.3914
    0.1420   51.1200    0.7785    0.9773    0.4484   -0.4144
    0.1430   51.4800    0.7824    0.9745    0.4315   -0.4371
    0.1440   51.8400    0.7863    0.9716    0.4144   -0.4596
    0.1450   52.2000    0.7902    0.9686    0.3971   -0.4818
    0.1460   52.5600    0.7940    0.9654    0.3798   -0.5036
    0.1470   52.9200    0.7978    0.9620    0.3623   -0.5252
    0.1480   53.2800    0.8016    0.9585    0.3446   -0.5464
    0.1490   53.6400    0.8053    0.9549    0.3269   -0.5673
    0.1500   54.0000    0.8090    0.9511    0.3090   -0.5878
    0.1510   54.3600    0.8127    0.9471    0.2910   -0.6079
    0.1520   54.7200    0.8163    0.9430    0.2730   -0.6277
    0.1530   55.0800    0.8200    0.9387    0.2548   -0.6471
    0.1540   55.4400    0.8235    0.9343    0.2365   -0.6660
    0.1550   55.8000    0.8271    0.9298    0.2181   -0.6845
    0.1560   56.1600    0.8306    0.9251    0.1997   -0.7026
    0.1570   56.5200    0.8341    0.9202    0.1812   -0.7203
    0.1580   56.8800    0.8375    0.9152    0.1626   -0.7375
    0.1590   57.2400    0.8409    0.9101    0.1440   -0.7543
    0.1600   57.6000    0.8443    0.9048    0.1253   -0.7705
    0.1610   57.9600    0.8477    0.8994    0.1066   -0.7863
    0.1620   58.3200    0.8510    0.8938    0.0879   -0.8016
    0.1630   58.6800    0.8543    0.8881    0.0691   -0.8163
    0.1640   59.0400    0.8575    0.8823    0.0502   -0.8306
    0.1650   59.4000    0.8607    0.8763    0.0314   -0.8443
    0.1660   59.7600    0.8639    0.8702    0.0126   -0.8575
    0.1670   60.1200    0.8671    0.8639   -0.0063   -0.8702
    0.1680   60.4800    0.8702    0.8575   -0.0251   -0.8823
    0.1690   60.8400    0.8733    0.8510   -0.0440   -0.8938
    0.1700   61.2000    0.8763    0.8443   -0.0628   -0.9048
    0.1710   61.5600    0.8793    0.8375   -0.0816   -0.9152
    0.1720   61.9200    0.8823    0.8306   -0.1004   -0.9251
    0.1730   62.2800    0.8852    0.8235   -0.1191   -0.9343
    0.1740   62.6400    0.8881    0.8163   -0.1378   -0.9430
    0.1750   63.0000    0.8910    0.8090   -0.1564   -0.9511
    0.1760   63.3600    0.8938    0.8016   -0.1750   -0.9585
    0.1770   63.7200    0.8966    0.7940   -0.1935   -0.9654
    0.1780   64.0800    0.8994    0.7863   -0.2120   -0.9716
    0.1790   64.4400    0.9021    0.7785   -0.2304   -0.9773
    0.1800   64.8000    0.9048    0.7705   -0.2487   -0.9823
    0.1810   65.1600    0.9075    0.7624   -0.2669   -0.9867
    0.1820   65.5200    0.9101    0.7543   -0.2850   -0.9905
    0.1830   65.8800    0.9127    0.7459   -0.3030   -0.9936
    0.1840   66.2400    0.9152    0.7375   -0.3209   -0.9961
    0.1850   66.6000    0.9178    0.7290   -0.3387   -0.9980
    0.1860   66.9600    0.9202    0.7203   -0.3564   -0.9993
    0.1870   67.3200    0.9227    0.7115   -0.3740   -0.9999
    0.1880   67.6800    0.9251    0.7026   -0.3914   -0.9999
    0.1890   68.0400    0.9274    0.6937   -0.4086   -0.9993
    0.1900   68.4000    0.9298    0.6845   -0.4258   -0.9980
    0.1910   68.7600    0.9321    0.6753   -0.4428   -0.9961
    0.1920   69.1200    0.9343    0.6660   -0.4596   -0.9936
    0.1930   69.4800    0.9365    0.6566   -0.4762   -0.9905
    0.1940   69.8400    0.9387    0.6471   -0.4927   -0.9867
    0.1950   70.2000    0.9409    0.6374   -0.5090   -0.9823
    0.1960   70.5600    0.9430    0.6277   -0.5252   -0.9773
    0.1970   70.9200    0.9451    0.6179   -0.5411   -0.9716
    0.1980   71.2800    0.9471    0.6079   -0.5569   -0.9654
    0.1990   71.6400    0.9491    0.5979   -0.5724   -0.9585
    0.2000   72.0000    0.9511    0.5878   -0.5878   -0.9511
    0.2010   72.3600    0.9530    0.5776   -0.6029   -0.9430
    0.2020   72.7200    0.9549    0.5673   -0.6179   -0.9343
    0.2030   73.0800    0.9567    0.5569   -0.6326   -0.9251
    0.2040   73.4400    0.9585    0.5464   -0.6471   -0.9152
    0.2050   73.8000    0.9603    0.5358   -0.6613   -0.9048
    0.2060   74.1600    0.9620    0.5252   -0.6753   -0.8938
    0.2070   74.5200    0.9637    0.5144   -0.6891   -0.8823
    0.2080   74.8800    0.9654    0.5036   -0.7026   -0.8702
    0.2090   75.2400    0.9670    0.4927   -0.7159   -0.8575
    0.2100   75.6000    0.9686    0.4818   -0.7290   -0.8443
    0.2110   75.9600    0.9701    0.4707   -0.7417   -0.8306
    0.2120   76.3200    0.9716    0.4596   -0.7543   -0.8163
    0.2130   76.6800    0.9731    0.4484   -0.7665   -0.8016
    0.2140   77.0400    0.9745    0.4371   -0.7785   -0.7863
    0.2150   77.4000    0.9759    0.4258   -0.7902   -0.7705
    0.2160   77.7600    0.9773    0.4144   -0.8016   -0.7543
    0.2170   78.1200    0.9786    0.4029   -0.8127   -0.7375
    0.2180   78.4800    0.9799    0.3914   -0.8235   -0.7203
    0.2190   78.8400    0.9811    0.3798   -0.8341   -0.7026
    0.2200   79.2000    0.9823    0.3681   -0.8443   -0.6845
    0.2210   79.5600    0.9834    0.3564   -0.8543   -0.6660
    0.2220   79.9200    0.9846    0.3446   -0.8639   -0.6471
    0.2230   80.2800    0.9856    0.3328   -0.8733   -0.6277
    0.2240   80.6400    0.9867    0.3209   -0.8823   -0.6079
    0.2250   81.0000    0.9877    0.3090   -0.8910   -0.5878
    0.2260   81.3600    0.9887    0.2970   -0.8994   -0.5673
    0.2270   81.7200    0.9896    0.2850   -0.9075   -0.5464
    0.2280   82.0800    0.9905    0.2730   -0.9152   -0.5252
    0.2290   82.4400    0.9913    0.2608   -0.9227   -0.5036
    0.2300   82.8000    0.9921    0.2487   -0.9298   -0.4818
    0.2310   83.1600    0.9929    0.2365   -0.9365   -0.4596
    0.2320   83.5200    0.9936    0.2243   -0.9430   -0.4371
    0.2330   83.8800    0.9943    0.2120   -0.9491   -0.4144
    0.2340   84.2400    0.9950    0.1997   -0.9549   -0.3914
    0.2350   84.6000    0.9956    0.1874   -0.9603   -0.3681
    0.2360   84.9600    0.9961    0.1750   -0.9654   -0.3446
    0.2370   85.3200    0.9967    0.1626   -0.9701   -0.3209
    0.2380   85.6800    0.9972    0.1502   -0.9745   -0.2970
    0.2390   86.0400    0.9976    0.1378   -0.9786   -0.2730
    0.2400   86.4000    0.9980    0.1253   -0.9823   -0.2487
    0.2410   86.7600    0.9984    0.1129   -0.9856   -0.2243
    0.2420   87.1200    0.9987    0.1004   -0.9887   -0.1997
    0.2430   87.4800    0.9990    0.0879   -0.9913   -0.1750
    0.2440   87.8400    0.9993    0.0753   -0.9936   -0.1502
    0.2450   88.2000    0.9995    0.0628   -0.9956   -0.1253
    0.2460   88.5600    0.9997    0.0502   -0.9972   -0.1004
    0.2470   88.9200    0.9998    0.0377   -0.9984   -0.0753
    0.2480   89.2800    0.9999    0.0251   -0.9993   -0.0502
    0.2490   89.6400    1.0000    0.0126   -0.9998   -0.0251
    0.2500   90.0000    1.0000    0.0000   -1.0000    0.0000
    0.2510   90.3600    1.0000   -0.0126   -0.9998    0.0251
    0.2520   90.7200    0.9999   -0.0251   -0.9993    0.0502
    0.2530   91.0800    0.9998   -0.0377   -0.9984    0.0753
    0.2540   91.4400    0.9997   -0.0502   -0.9972    0.1004
    0.2550   91.8000    0.9995   -0.0628   -0.9956    0.1253
    0.2560   92.1600    0.9993   -0.0753   -0.9936    0.1502
    0.2570   92.5200    0.9990   -0.0879   -0.9913    0.1750
    0.2580   92.8800    0.9987   -0.1004   -0.9887    0.1997
    0.2590   93.2400    0.9984   -0.1129   -0.9856    0.2243
    0.2600   93.6000    0.9980   -0.1253   -0.9823    0.2487
    0.2610   93.9600    0.9976   -0.1378   -0.9786    0.2730
    0.2620   94.3200    0.9972   -0.1502   -0.9745    0.2970
    0.2630   94.6800    0.9967   -0.1626   -0.9701    0.3209
    0.2640   95.0400    0.9961   -0.1750   -0.9654    0.3446
    0.2650   95.4000    0.9956   -0.1874   -0.9603    0.3681
    0.2660   95.7600    0.9950   -0.1997   -0.9549    0.3914
    0.2670   96.1200    0.9943   -0.2120   -0.9491    0.4144
    0.2680   96.4800    0.9936   -0.2243   -0.9430    0.4371
    0.2690   96.8400    0.9929   -0.2365   -0.9365    0.4596
    0.2700   97.2000    0.9921   -0.2487   -0.9298    0.4818
    0.2710   97.5600    0.9913   -0.2608   -0.9227    0.5036
    0.2720   97.9200    0.9905   -0.2730   -0.9152    0.5252
    0.2730   98.2800    0.9896   -0.2850   -0.9075    0.5464
    0.2740   98.6400    0.9887   -0.2970   -0.8994    0.5673
    0.2750   99.0000    0.9877   -0.3090   -0.8910    0.5878
    0.2760   99.3600    0.9867   -0.3209   -0.8823    0.6079
    0.2770   99.7200    0.9856   -0.3328   -0.8733    0.6277
    0.2780  100.0800    0.9846   -0.3446   -0.8639    0.6471
    0.2790  100.4400    0.9834   -0.3564   -0.8543    0.6660
    0.2800  100.8000    0.9823   -0.3681   -0.8443    0.6845
    0.2810  101.1600    0.9811   -0.3798   -0.8341    0.7026
    0.2820  101.5200    0.9799   -0.3914   -0.8235    0.7203
    0.2830  101.8800    0.9786   -0.4029   -0.8127    0.7375
    0.2840  102.2400    0.9773   -0.4144   -0.8016    0.7543
    0.2850  102.6000    0.9759   -0.4258   -0.7902    0.7705
    0.2860  102.9600    0.9745   -0.4371   -0.7785    0.7863
    0.2870  103.3200    0.9731   -0.4484   -0.7665    0.8016
    0.2880  103.6800    0.9716   -0.4596   -0.7543    0.8163
    0.2890  104.0400    0.9701   -0.4707   -0.7417    0.8306
    0.2900  104.4000    0.9686   -0.4818   -0.7290    0.8443
    0.2910  104.7600    0.9670   -0.4927   -0.7159    0.8575
    0.2920  105.1200    0.9654   -0.5036   -0.7026    0.8702
    0.2930  105.4800    0.9637   -0.5144   -0.6891    0.8823
    0.2940  105.8400    0.9620   -0.5252   -0.6753    0.8938
    0.2950  106.2000    0.9603   -0.5358   -0.6613    0.9048
    0.2960  106.5600    0.9585   -0.5464   -0.6471    0.9152
    0.2970  106.9200    0.9567   -0.5569   -0.6326    0.9251
    0.2980  107.2800    0.9549   -0.5673   -0.6179    0.9343
    0.2990  107.6400    0.9530   -0.5776   -0.6029    0.9430
    0.3000  108.0000    0.9511   -0.5878   -0.5878    0.9511
    0.3010  108.3600    0.9491   -0.5979   -0.5724    0.9585
    0.3020  108.7200    0.9471   -0.6079   -0.5569    0.9654
    0.3030  109.0800    0.9451   -0.6179   -0.5411    0.9716
    0.3040  109.4400    0.9430   -0.6277   -0.5252    0.9773
    0.3050  109.8000    0.9409   -0.6374   -0.5090    0.9823
    0.3060  110.1600    0.9387   -0.6471   -0.4927    0.9867
    0.3070  110.5200    0.9365   -0.6566   -0.4762    0.9905
    0.3080  110.8800    0.9343   -0.6660   -0.4596    0.9936
    0.3090  111.2400    0.9321   -0.6753   -0.4428    0.9961
    0.3100  111.6000    0.9298   -0.6845   -0.4258    0.9980
    0.3110  111.9600    0.9274   -0.6937   -0.4086    0.9993
    0.3120  112.3200    0.9251   -0.7026   -0.3914    0.9999
    0.3130  112.6800    0.9227   -0.7115   -0.3740    0.9999
    0.3140  113.0400    0.9202   -0.7203   -0.3564    0.9993
    0.3150  113.4000    0.9178   -0.7290   -0.3387    0.9980
    0.3160  113.7600    0.9152   -0.7375   -0.3209    0.9961
    0.3170  114.1200    0.9127   -0.7459   -0.3030    0.9936
    0.3180  114.4800    0.9101   -0.7543   -0.2850    0.9905
    0.3190  114.8400    0.9075   -0.7624   -0.2669    0.9867
    0.3200  115.2000    0.9048   -0.7705   -0.2487    0.9823
    0.3210  115.5600    0.9021   -0.7785   -0.2304    0.9773
    0.3220  115.9200    0.8994   -0.7863   -0.2120    0.9716
    0.3230  116.2800    0.8966   -0.7940   -0.1935    0.9654
    0.3240  116.6400    0.8938   -0.8016   -0.1750    0.9585
    0.3250  117.0000    0.8910   -0.8090   -0.1564    0.9511
    0.3260  117.3600    0.8881   -0.8163   -0.1378    0.9430
    0.3270  117.7200    0.8852   -0.8235   -0.1191    0.9343
    0.3280  118.0800    0.8823   -0.8306   -0.1004    0.9251
    0.3290  118.4400    0.8793   -0.8375   -0.0816    0.9152
    0.3300  118.8000    0.8763   -0.8443   -0.0628    0.9048
    0.3310  119.1600    0.8733   -0.8510   -0.0440    0.8938
    0.3320  119.5200    0.8702   -0.8575   -0.0251    0.8823
    0.3330  119.8800    0.8671   -0.8639   -0.0063    0.8702
    0.3340  120.2400    0.8639   -0.8702    0.0126    0.8575
    0.3350  120.6000    0.8607   -0.8763    0.0314    0.8443
    0.3360  120.9600    0.8575   -0.8823    0.0502    0.8306
    0.3370  121.3200    0.8543   -0.8881    0.0691    0.8163
    0.3380  121.6800    0.8510   -0.8938    0.0879    0.8016
    0.3390  122.0400    0.8477   -0.8994    0.1066    0.7863
    0.3400  122.4000    0.8443   -0.9048    0.1253    0.7705
    0.3410  122.7600    0.8409   -0.9101    0.1440    0.7543
    0.3420  123.1200    0.8375   -0.9152    0.1626    0.7375
    0.3430  123.4800    0.8341   -0.9202    0.1812    0.7203
    0.3440  123.8400    0.8306   -0.9251    0.1997    0.7026
    0.3450  124.2000    0.8271   -0.9298    0.2181    0.6845
    0.3460  124.5600    0.8235   -0.9343    0.2365    0.6660
    0.3470  124.9200    0.8200   -0.9387    0.2548    0.6471
    0.3480  125.2800    0.8163   -0.9430    0.2730    0.6277
    0.3490  125.6400    0.8127   -0.9471    0.2910    0.6079
    0.3500  126.0000    0.8090   -0.9511    0.3090    0.5878
    0.3510  126.3600    0.8053   -0.9549    0.3269    0.5673
    0.3520  126.7200    0.8016   -0.9585    0.3446    0.5464
    0.3530  127.0800    0.7978   -0.9620    0.3623    0.5252
    0.3540  127.4400    0.7940   -0.9654    0.3798    0.5036
    0.3550  127.8000    0.7902   -0.9686    0.3971    0.4818
    0.3560  128.1600    0.7863   -0.9716    0.4144    0.4596
    0.3570  128.5200    0.7824   -0.9745    0.4315    0.4371
    0.3580  128.8800    0.7785   -0.9773    0.4484    0.4144
    0.3590  129.2400    0.7745   -0.9799    0.4652    0.3914
    0.3600  129.6000    0.7705   -0.9823    0.4818    0.3681
    0.3610  129.9600    0.7665   -0.9846    0.4982    0.3446
    0.3620  130.3200    0.7624   -0.9867    0.5144    0.3209
    0.3630  130.6800    0.7584   -0.9887    0.5305    0.2970
    0.3640  131.0400    0.7543   -0.9905    0.5464    0.2730
    0.3650  131.4000    0.7501   -0.9921    0.5621    0.2487
    0.3660  131.7600    0.7459   -0.9936    0.5776    0.2243
    0.3670  132.1200    0.7417   -0.9950    0.5929    0.1997
    0.3680  132.4800    0.7375   -0.9961    0.6079    0.1750
    0.3690  132.8400    0.7333   -0.9972    0.6228    0.1502
    0.3700  133.2000    0.7290   -0.9980    0.6374    0.1253
    0.3710  133.5600    0.7247   -0.9987    0.6518    0.1004
    0.3720  133.9200    0.7203   -0.9993    0.6660    0.0753
    0.3730  134.2800    0.7159   -0.9997    0.6800    0.0502
    0.3740  134.6400    0.7115   -0.9999    0.6937    0.0251
    0.3750  135.0000    0.7071   -1.0000    0.7071    0.0000
    0.3760  135.3600    0.7026   -0.9999    0.7203   -0.0251
    0.3770  135.7200    0.6982   -0.9997    0.7333   -0.0502
    0.3780  136.0800    0.6937   -0.9993    0.7459   -0.0753
    0.3790  136.4400    0.6891   -0.9987    0.7584   -0.1004
    0.3800  136.8000    0.6845   -0.9980    0.7705   -0.1253
    0.3810  137.1600    0.6800   -0.9972    0.7824   -0.1502
    0.3820  137.5200    0.6753   -0.9961    0.7940   -0.1750
    0.3830  137.8800    0.6707   -0.9950    0.8053   -0.1997
    0.3840  138.2400    0.6660   -0.9936    0.8163   -0.2243
    0.3850  138.6000    0.6613   -0.9921    0.8271   -0.2487
    0.3860  138.9600    0.6566   -0.9905    0.8375   -0.2730
    0.3870  139.3200    0.6518   -0.9887    0.8477   -0.2970
    0.3880  139.6800    0.6471   -0.9867    0.8575   -0.3209
    0.3890  140.0400    0.6423   -0.9846    0.8671   -0.3446
    0.3900  140.4000    0.6374   -0.9823    0.8763   -0.3681
    0.3910  140.7600    0.6326   -0.9799    0.8852   -0.3914
    0.3920  141.1200    0.6277   -0.9773    0.8938   -0.4144
    0.3930  141.4800    0.6228   -0.9745    0.9021   -0.4371
    0.3940  141.8400    0.6179   -0.9716    0.9101   -0.4596
    0.3950  142.2000    0.6129   -0.9686    0.9178   -0.4818
    0.3960  142.5600    0.6079   -0.9654    0.9251   -0.5036
    0.3970  142.9200    0.6029   -0.9620    0.9321   -0.5252
    0.3980  143.2800    0.5979   -0.9585    0.9387   -0.5464
    0.3990  143.6400    0.5929   -0.9549    0.9451   -0.5673
    0.4000  144.0000    0.5878   -0.9511    0.9511   -0.5878
    0.4010  144.3600    0.5827   -0.9471    0.9567   -0.6079
    0.4020  144.7200    0.5776   -0.9430    0.9620   -0.6277
    0.4030  145.0800    0.5724   -0.9387    0.9670   -0.6471
    0.4040  145.4400    0.5673   -0.9343    0.9716   -0.6660
    0.4050  145.8000    0.5621   -0.9298    0.9759   -0.6845
    0.4060  146.1600    0.5569   -0.9251    0.9799   -0.7026
    0.4070  146.5200    0.5516   -0.9202    0.9834   -0.7203
    0.4080  146.8800    0.5464   -0.9152    0.9867   -0.7375
    0.4090  147.2400    0.5411   -0.9101    0.9896   -0.7543
    0.4100  147.6000    0.5358   -0.9048    0.9921   -0.7705
    0.4110  147.9600    0.5305   -0.8994    0.9943   -0.7863
    0.4120  148.3200    0.5252   -0.8938    0.9961   -0.8016
    0.4130  148.6800    0.5198   -0.8881    0.9976   -0.8163
    0.4140  149.0400    0.5144   -0.8823    0.9987   -0.8306
    0.4150  149.4000    0.5090   -0.8763    0.9995   -0.8443
    0.4160  149.7600    0.5036   -0.8702    0.9999   -0.8575
    0.4170  150.1200    0.4982   -0.8639    1.0000   -0.8702
    0.4180  150.4800    0.4927   -0.8575    0.9997   -0.8823
    0.4190  150.8400    0.4873   -0.8510    0.9990   -0.8938
    0.4200  151.2000    0.4818   -0.8443    0.9980   -0.9048
    0.4210  151.5600    0.4762   -0.8375    0.9967   -0.9152
    0.4220  151.9200    0.4707   -0.8306    0.9950   -0.9251
    0.4230  152.2800    0.4652   -0.8235    0.9929   -0.9343
    0.4240  152.6400    0.4596   -0.8163    0.9905   -0.9430
    0.4250  153.0000    0.4540   -0.8090    0.9877   -0.9511
    0.4260  153.3600    0.4484   -0.8016    0.9846   -0.9585
    0.4270  153.7200    0.4428   -0.7940    0.9811   -0.9654
    0.4280  154.0800    0.4371   -0.7863    0.9773   -0.9716
    0.4290  154.4400    0.4315   -0.7785    0.9731   -0.9773
    0.4300  154.8000    0.4258   -0.7705    0.9686   -0.9823
    0.4310  155.1600    0.4201   -0.7624    0.9637   -0.9867
    0.4320  155.5200    0.4144   -0.7543    0.9585   -0.9905
    0.4330  155.8800    0.4086   -0.7459    0.9530   -0.9936
    0.4340  156.2400    0.4029   -0.7375    0.9471   -0.9961
    0.4350  156.6000    0.3971   -0.7290    0.9409   -0.9980
    0.4360  156.9600    0.3914   -0.7203    0.9343   -0.9993
    0.4370  157.3200    0.3856   -0.7115    0.9274   -0.9999
    0.4380  157.6800    0.3798   -0.7026    0.9202   -0.9999
    0.4390  158.0400    0.3740   -0.6937    0.9127   -0.9993
    0.4400  158.4000    0.3681   -0.6845    0.9048   -0.9980
    0.4410  158.7600    0.3623   -0.6753    0.8966   -0.9961
    0.4420  159.1200    0.3564   -0.6660    0.8881   -0.9936
    0.4430  159.4800    0.3505   -0.6566    0.8793   -0.9905
    0.4440  159.8400    0.3446   -0.6471    0.8702   -0.9867
    0.4450  160.2000    0.3387   -0.6374    0.8607   -0.9823
    0.4460  160.5600    0.3328   -0.6277    0.8510   -0.9773
    0.4470  160.9200    0.3269   -0.6179    0.8409   -0.9716
    0.4480  161.2800    0.3209   -0.6079    0.8306   -0.9654
    0.4490  161.6400    0.3150   -0.5979    0.8200   -0.9585
    0.4500  162.0000    0.3090   -0.5878    0.8090   -0.9511
    0.4510  162.3600    0.3030   -0.5776    0.7978   -0.9430
    0.4520  162.7200    0.2970   -0.5673    0.7863   -0.9343
    0.4530  163.0800    0.2910   -0.5569    0.7745   -0.9251
    0.4540  163.4400    0.2850   -0.5464    0.7624   -0.9152
    0.4550  163.8000    0.2790   -0.5358    0.7501   -0.9048
    0.4560  164.1600    0.2730   -0.5252    0.7375   -0.8938
    0.4570  164.5200    0.2669   -0.5144    0.7247   -0.8823
    0.4580  164.8800    0.2608   -0.5036    0.7115   -0.8702
    0.4590  165.2400    0.2548   -0.4927    0.6982   -0.8575
    0.4600  165.6000    0.2487   -0.4818    0.6845   -0.8443
    0.4610  165.9600    0.2426   -0.4707    0.6707   -0.8306
    0.4620  166.3200    0.2365   -0.4596    0.6566   -0.8163
    0.4630  166.6800    0.2304   -0.4484    0.6423   -0.8016
    0.4640  167.0400    0.2243   -0.4371    0.6277   -0.7863
    0.4650  167.4000    0.2181   -0.4258    0.6129   -0.7705
    0.4660  167.7600    0.2120   -0.4144    0.5979   -0.7543
    0.4670  168.1200    0.2059   -0.4029    0.5827   -0.7375
    0.4680  168.4800    0.1997   -0.3914    0.5673   -0.7203
    0.4690  168.8400    0.1935   -0.3798    0.5516   -0.7026
    0.4700  169.2000    0.1874   -0.3681    0.5358   -0.6845
    0.4710  169.5600    0.1812   -0.3564    0.5198   -0.6660
    0.4720  169.9200    0.1750   -0.3446    0.5036   -0.6471
    0.4730  170.2800    0.1688   -0.3328    0.4873   -0.6277
    0.4740  170.6400    0.1626   -0.3209    0.4707   -0.6079
    0.4750  171.0000    0.1564   -0.3090    0.4540   -0.5878
    0.4760  171.3600    0.1502   -0.2970    0.4371   -0.5673
    0.4770  171.7200    0.1440   -0.2850    0.4201   -0.5464
    0.4780  172.0800    0.1378   -0.2730    0.4029   -0.5252
    0.4790  172.4400    0.1316   -0.2608    0.3856   -0.5036
    0.4800  172.8000    0.1253   -0.2487    0.3681   -0.4818
    0.4810  173.1600    0.1191   -0.2365    0.3505   -0.4596
    0.4820  173.5200    0.1129   -0.2243    0.3328   -0.4371
    0.4830  173.8800    0.1066   -0.2120    0.3150   -0.4144
    0.4840  174.2400    0.1004   -0.1997    0.2970   -0.3914
    0.4850  174.6000    0.0941   -0.1874    0.2790   -0.3681
    0.4860  174.9600    0.0879   -0.1750    0.2608   -0.3446
    0.4870  175.3200    0.0816   -0.1626    0.2426   -0.3209
    0.4880  175.6800    0.0753   -0.1502    0.2243   -0.2970
    0.4890  176.0400    0.0691   -0.1378    0.2059   -0.2730
    0.4900  176.4000    0.0628   -0.1253    0.1874   -0.2487
    0.4910  176.7600    0.0565   -0.1129    0.1688   -0.2243
    0.4920  177.1200    0.0502   -0.1004    0.1502   -0.1997
    0.4930  177.4800    0.0440   -0.0879    0.1316   -0.1750
    0.4940  177.8400    0.0377   -0.0753    0.1129   -0.1502
    0.4950  178.2000    0.0314   -0.0628    0.0941   -0.1253
    0.4960  178.5600    0.0251   -0.0502    0.0753   -0.1004
    0.4970  178.9200    0.0188   -0.0377    0.0565   -0.0753
    0.4980  179.2800    0.0126   -0.0251    0.0377   -0.0502
    0.4990  179.6400    0.0063   -0.0126    0.0188   -0.0251
    0.5000  180.0000    0.0000    0.0000    0.0000    0.0000
    0.5010  180.3600   -0.0063    0.0126   -0.0188    0.0251
    0.5020  180.7200   -0.0126    0.0251   -0.0377    0.0502
    0.5030  181.0800   -0.0188    0.0377   -0.0565    0.0753
    0.5040  181.4400   -0.0251    0.0502   -0.0753    0.1004
    0.5050  181.8000   -0.0314    0.0628   -0.0941    0.1253
    0.5060  182.1600   -0.0377    0.0753   -0.1129    0.1502
    0.5070  182.5200   -0.0440    0.0879   -0.1316    0.1750
    0.5080  182.8800   -0.0502    0.1004   -0.1502    0.1997
    0.5090  183.2400   -0.0565    0.1129   -0.1688    0.2243
    0.5100  183.6000   -0.0628    0.1253   -0.1874    0.2487
    0.5110  183.9600   -0.0691    0.1378   -0.2059    0.2730
    0.5120  184.3200   -0.0753    0.1502   -0.2243    0.2970
    0.5130  184.6800   -0.0816    0.1626   -0.2426    0.3209
    0.5140  185.0400   -0.0879    0.1750   -0.2608    0.3446
    0.5150  185.4000   -0.0941    0.1874   -0.2790    0.3681
    0.5160  185.7600   -0.1004    0.1997   -0.2970    0.3914
    0.5170  186.1200   -0.1066    0.2120   -0.3150    0.4144
    0.5180  186.4800   -0.1129    0.2243   -0.3328    0.4371
    0.5190  186.8400   -0.1191    0.2365   -0.3505    0.4596
    0.5200  187.2000   -0.1253    0.2487   -0.3681    0.4818
    0.5210  187.5600   -0.1316    0.2608   -0.3856    0.5036
    0.5220  187.9200   -0.1378    0.2730   -0.4029    0.5252
    0.5230  188.2800   -0.1440    0.2850   -0.4201    0.5464
    0.5240  188.6400   -0.1502    0.2970   -0.4371    0.5673
    0.5250  189.0000   -0.1564    0.3090   -0.4540    0.5878
    0.5260  189.3600   -0.1626    0.3209   -0.4707    0.6079
    0.5270  189.7200   -0.1688    0.3328   -0.4873    0.6277
    0.5280  190.0800   -0.1750    0.3446   -0.5036    0.6471
    0.5290  190.4400   -0.1812    0.3564   -0.5198    0.6660
    0.5300  190.8000   -0.1874    0.3681   -0.5358    0.6845
    0.5310  191.1600   -0.1935    0.3798   -0.5516    0.7026
    0.5320  191.5200   -0.1997    0.3914   -0.5673    0.7203
    0.5330  191.8800   -0.2059    0.4029   -0.5827    0.7375
    0.5340  192.2400   -0.2120    0.4144   -0.5979    0.7543
    0.5350  192.6000   -0.2181    0.4258   -0.6129    0.7705
    0.5360  192.9600   -0.2243    0.4371   -0.6277    0.7863
    0.5370  193.3200   -0.2304    0.4484   -0.6423    0.8016
    0.5380  193.6800   -0.2365    0.4596   -0.6566    0.8163
    0.5390  194.0400   -0.2426    0.4707   -0.6707    0.8306
    0.5400  194.4000   -0.2487    0.4818   -0.6845    0.8443
    0.5410  194.7600   -0.2548    0.4927   -0.6982    0.8575
    0.5420  195.1200   -0.2608    0.5036   -0.7115    0.8702
    0.5430  195.4800   -0.2669    0.5144   -0.7247    0.8823
    0.5440  195.8400   -0.2730    0.5252   -0.7375    0.8938
    0.5450  196.2000   -0.2790    0.5358   -0.7501    0.9048
    0.5460  196.5600   -0.2850    0.5464   -0.7624    0.9152
    0.5470  196.9200   -0.2910    0.5569   -0.7745    0.9251
    0.5480  197.2800   -0.2970    0.5673   -0.7863    0.9343
    0.5490  197.6400   -0.3030    0.5776   -0.7978    0.9430
    0.5500  198.0000   -0.3090    0.5878   -0.8090    0.9511
    0.5510  198.3600   -0.3150    0.5979   -0.8200    0.9585
    0.5520  198.7200   -0.3209    0.6079   -0.8306    0.9654
    0.5530  199.0800   -0.3269    0.6179   -0.8409    0.9716
    0.5540  199.4400   -0.3328    0.6277   -0.8510    0.9773
    0.5550  199.8000   -0.3387    0.6374   -0.8607    0.9823
    0.5560  200.1600   -0.3446    0.6471   -0.8702    0.9867
    0.5570  200.5200   -0.3505    0.6566   -0.8793    0.9905
    0.5580  200.8800   -0.3564    0.6660   -0.8881    0.9936
    0.5590  201.2400   -0.3623    0.6753   -0.8966    0.9961
    0.5600  201.6000   -0.3681    0.6845   -0.9048    0.9980
    0.5610  201.9600   -0.3740    0.6937   -0.9127    0.9993
    0.5620  202.3200   -0.3798    0.7026   -0.9202    0.9999
    0.5630  202.6800   -0.3856    0.7115   -0.9274    0.9999
    0.5640  203.0400   -0.3914    0.7203   -0.9343    0.9993
    0.5650  203.4000   -0.3971    0.7290   -0.9409    0.9980
    0.5660  203.7600   -0.4029    0.7375   -0.9471    0.9961
    0.5670  204.1200   -0.4086    0.7459   -0.9530    0.9936
    0.5680  204.4800   -0.4144    0.7543   -0.9585    0.9905
    0.5690  204.8400   -0.4201    0.7624   -0.9637    0.9867
    0.5700  205.2000   -0.4258    0.7705   -0.9686    0.9823
    0.5710  205.5600   -0.4315    0.7785   -0.9731    0.9773
    0.5720  205.9200   -0.4371    0.7863   -0.9773    0.9716
    0.5730  206.2800   -0.4428    0.7940   -0.9811    0.9654
    0.5740  206.6400   -0.4484    0.8016   -0.9846    0.9585
    0.5750  207.0000   -0.4540    0.8090   -0.9877    0.9511
    0.5760  207.3600   -0.4596    0.8163   -0.9905    0.9430
    0.5770  207.7200   -0.4652    0.8235   -0.9929    0.9343
    0.5780  208.0800   -0.4707    0.8306   -0.9950    0.9251
    0.5790  208.4400   -0.4762    0.8375   -0.9967    0.9152
    0.5800  208.8000   -0.4818    0.8443   -0.9980    0.9048
    0.5810  209.1600   -0.4873    0.8510   -0.9990    0.8938
    0.5820  209.5200   -0.4927    0.8575   -0.9997    0.8823
    0.5830  209.8800   -0.4982    0.8639   -1.0000    0.8702
    0.5840  210.2400   -0.5036    0.8702   -0.9999    0.8575
    0.5850  210.6000   -0.5090    0.8763   -0.9995    0.8443
    0.5860  210.9600   -0.5144    0.8823   -0.9987    0.8306
    0.5870  211.3200   -0.5198    0.8881   -0.9976    0.8163
    0.5880  211.6800   -0.5252    0.8938   -0.9961    0.8016
    0.5890  212.0400   -0.5305    0.8994   -0.9943    0.7863
    0.5900  212.4000   -0.5358    0.9048   -0.9921    0.7705
    0.5910  212.7600   -0.5411    0.9101   -0.9896    0.7543
    0.5920  213.1200   -0.5464    0.9152   -0.9867    0.7375
    0.5930  213.4800   -0.5516    0.9202   -0.9834    0.7203
    0.5940  213.8400   -0.5569    0.9251   -0.9799    0.7026
    0.5950  214.2000   -0.5621    0.9298   -0.9759    0.6845
    0.5960  214.5600   -0.5673    0.9343   -0.9716    0.6660
    0.5970  214.9200   -0.5724    0.9387   -0.9670    0.6471
    0.5980  215.2800   -0.5776    0.9430   -0.9620    0.6277
    0.5990  215.6400   -0.5827    0.9471   -0.9567    0.6079
    0.6000  216.0000   -0.5878    0.9511   -0.9511    0.5878
    0.6010  216.3600   -0.5929    0.9549   -0.9451    0.5673
    0.6020  216.7200   -0.5979    0.9585   -0.9387    0.5464
    0.6030  217.0800   -0.6029    0.9620   -0.9321    0.5252
    0.6040  217.4400   -0.6079    0.9654   -0.9251    0.5036
    0.6050  217.8000   -0.6129    0.9686   -0.9178    0.4818
    0.6060  218.1600   -0.6179    0.9716   -0.9101    0.4596
    0.6070  218.5200   -0.6228    0.9745   -0.9021    0.4371
    0.6080  218.8800   -0.6277    0.9773   -0.8938    0.4144
    0.6090  219.2400   -0.6326    0.9799   -0.8852    0.3914
    0.6100  219.6000   -0.6374    0.9823   -0.8763    0.3681
    0.6110  219.9600   -0.6423    0.9846   -0.8671    0.3446
    0.6120  220.3200   -0.6471    0.9867   -0.8575    0.3209
    0.6130  220.6800   -0.6518    0.9887   -0.8477    0.2970
    0.6140  221.0400   -0.6566    0.9905   -0.8375    0.2730
    0.6150  221.4000   -0.6613    0.9921   -0.8271    0.2487
    0.6160  221.7600   -0.6660    0.9936   -0.8163    0.2243
    0.6170  222.1200   -0.6707    0.9950   -0.8053    0.1997
    0.6180  222.4800   -0.6753    0.9961   -0.7940    0.1750
    0.6190  222.8400   -0.6800    0.9972   -0.7824    0.1502
    0.6200  223.2000   -0.6845    0.9980   -0.7705    0.1253
    0.6210  223.5600   -0.6891    0.9987   -0.7584    0.1004
    0.6220  223.9200   -0.6937    0.9993   -0.7459    0.0753
    0.6230  224.2800   -0.6982    0.9997   -0.7333    0.0502
    0.6240  224.6400   -0.7026    0.9999   -0.7203    0.0251
    0.6250  225.0000   -0.7071    1.0000   -0.7071    0.0000
    0.6260  225.3600   -0.7115    0.9999   -0.6937   -0.0251
    0.6270  225.7200   -0.7159    0.9997   -0.6800   -0.0502
    0.6280  226.0800   -0.7203    0.9993   -0.6660   -0.0753
    0.6290  226.4400   -0.7247    0.9987   -0.6518   -0.1004
    0.6300  226.8000   -0.7290    0.9980   -0.6374   -0.1253
    0.6310  227.1600   -0.7333    0.9972   -0.6228   -0.1502
    0.6320  227.5200   -0.7375    0.9961   -0.6079   -0.1750
    0.6330  227.8800   -0.7417    0.9950   -0.5929   -0.1997
    0.6340  228.2400   -0.7459    0.9936   -0.5776   -0.2243
    0.6350  228.6000   -0.7501    0.9921   -0.5621   -0.2487
    0.6360  228.9600   -0.7543    0.9905   -0.5464   -0.2730
    0.6370  229.3200   -0.7584    0.9887   -0.5305   -0.2970
    0.6380  229.6800   -0.7624    0.9867   -0.5144   -0.3209
    0.6390  230.0400   -0.7665    0.9846   -0.4982   -0.3446
    0.6400  230.4000   -0.7705    0.9823   -0.4818   -0.3681
    0.6410  230.7600   -0.7745    0.9799   -0.4652   -0.3914
    0.6420  231.1200   -0.7785    0.9773   -0.4484   -0.4144
    0.6430  231.4800   -0.7824    0.9745   -0.4315   -0.4371
    0.6440  231.8400   -0.7863    0.9716   -0.4144   -0.4596
    0.6450  232.2000   -0.7902    0.9686   -0.3971   -0.4818
    0.6460  232.5600   -0.7940    0.9654   -0.3798   -0.5036
    0.6470  232.9200   -0.7978    0.9620   -0.3623   -0.5252
    0.6480  233.2800   -0.8016    0.9585   -0.3446   -0.5464
    0.6490  233.6400   -0.8053    0.9549   -0.3269   -0.5673
    0.6500  234.0000   -0.8090    0.9511   -0.3090   -0.5878
    0.6510  234.3600   -0.8127    0.9471   -0.2910   -0.6079
    0.6520  234.7200   -0.8163    0.9430   -0.2730   -0.6277
    0.6530  235.0800   -0.8200    0.9387   -0.2548   -0.6471
    0.6540  235.4400   -0.8235    0.9343   -0.2365   -0.6660
    0.6550  235.8000   -0.8271    0.9298   -0.2181   -0.6845
    0.6560  236.1600   -0.8306    0.9251   -0.1997   -0.7026
    0.6570  236.5200   -0.8341    0.9202   -0.1812   -0.7203
    0.6580  236.8800   -0.8375    0.9152   -0.1626   -0.7375
    0.6590  237.2400   -0.8409    0.9101   -0.1440   -0.7543
    0.6600  237.6000   -0.8443    0.9048   -0.1253   -0.7705
    0.6610  237.9600   -0.8477    0.8994   -0.1066   -0.7863
    0.6620  238.3200   -0.8510    0.8938   -0.0879   -0.8016
    0.6630  238.6800   -0.8543    0.8881   -0.0691   -0.8163
    0.6640  239.0400   -0.8575    0.8823   -0.0502   -0.8306
    0.6650  239.4000   -0.8607    0.8763   -0.0314   -0.8443
    0.6660  239.7600   -0.8639    0.8702   -0.0126   -0.8575
    0.6670  240.1200   -0.8671    0.8639    0.0063   -0.8702
    0.6680  240.4800   -0.8702    0.8575    0.0251   -0.8823
    0.6690  240.8400   -0.8733    0.8510    0.0440   -0.8938
    0.6700  241.2000   -0.8763    0.8443    0.0628   -0.9048
    0.6710  241.5600   -0.8793    0.8375    0.0816   -0.9152
    0.6720  241.9200   -0.8823    0.8306    0.1004   -0.9251
    0.6730  242.2800   -0.8852    0.8235    0.1191   -0.9343
    0.6740  242.6400   -0.8881    0.8163    0.1378   -0.9430
    0.6750  243.0000   -0.8910    0.8090    0.1564   -0.9511
    0.6760  243.3600   -0.8938    0.8016    0.1750   -0.9585
    0.6770  243.7200   -0.8966    0.7940    0.1935   -0.9654
    0.6780  244.0800   -0.8994    0.7863    0.2120   -0.9716
    0.6790  244.4400   -0.9021    0.7785    0.2304   -0.9773
    0.6800  244.8000   -0.9048    0.7705    0.2487   -0.9823
    0.6810  245.1600   -0.9075    0.7624    0.2669   -0.9867
    0.6820  245.5200   -0.9101    0.7543    0.2850   -0.9905
    0.6830  245.8800   -0.9127    0.7459    0.3030   -0.9936
    0.6840  246.2400   -0.9152    0.7375    0.3209   -0.9961
    0.6850  246.6000   -0.9178    0.7290    0.3387   -0.9980
    0.6860  246.9600   -0.9202    0.7203    0.3564   -0.9993
    0.6870  247.3200   -0.9227    0.7115    0.3740   -0.9999
    0.6880  247.6800   -0.9251    0.7026    0.3914   -0.9999
    0.6890  248.0400   -0.9274    0.6937    0.4086   -0.9993
    0.6900  248.4000   -0.9298    0.6845    0.4258   -0.9980
    0.6910  248.7600   -0.9321    0.6753    0.4428   -0.9961
    0.6920  249.1200   -0.9343    0.6660    0.4596   -0.9936
    0.6930  249.4800   -0.9365    0.6566    0.4762   -0.9905
    0.6940  249.8400   -0.9387    0.6471    0.4927   -0.9867
    0.6950  250.2000   -0.9409    0.6374    0.5090   -0.9823
    0.6960  250.5600   -0.9430    0.6277    0.5252   -0.9773
    0.6970  250.9200   -0.9451    0.6179    0.5411   -0.9716
    0.6980  251.2800   -0.9471    0.6079    0.5569   -0.9654
    0.6990  251.6400   -0.9491    0.5979    0.5724   -0.9585
    0.7000  252.0000   -0.9511    0.5878    0.5878   -0.9511
    0.7010  252.3600   -0.9530    0.5776    0.6029   -0.9430
    0.7020  252.7200   -0.9549    0.5673    0.6179   -0.9343
    0.7030  253.0800   -0.9567    0.5569    0.6326   -0.9251
    0.7040  253.4400   -0.9585    0.5464    0.6471   -0.9152
    0.7050  253.8000   -0.9603    0.5358    0.6613   -0.9048
    0.7060  254.1600   -0.9620    0.5252    0.6753   -0.8938
    0.7070  254.5200   -0.9637    0.5144    0.6891   -0.8823
    0.7080  254.8800   -0.9654    0.5036    0.7026   -0.8702
    0.7090  255.2400   -0.9670    0.4927    0.7159   -0.8575
    0.7100  255.6000   -0.9686    0.4818    0.7290   -0.8443
    0.7110  255.9600   -0.9701    0.4707    0.7417   -0.8306
    0.7120  256.3200   -0.9716    0.4596    0.7543   -0.8163
    0.7130  256.6800   -0.9731    0.4484    0.7665   -0.8016
    0.7140  257.0400   -0.9745    0.4371    0.7785   -0.7863
    0.7150  257.4000   -0.9759    0.4258    0.7902   -0.7705
    0.7160  257.7600   -0.9773    0.4144    0.8016   -0.7543
    0.7170  258.1200   -0.9786    0.4029    0.8127   -0.7375
    0.7180  258.4800   -0.9799    0.3914    0.8235   -0.7203
    0.7190  258.8400   -0.9811    0.3798    0.8341   -0.7026
    0.7200  259.2000   -0.9823    0.3681    0.8443   -0.6845
    0.7210  259.5600   -0.9834    0.3564    0.8543   -0.6660
    0.7220  259.9200   -0.9846    0.3446    0.8639   -0.6471
    0.7230  260.2800   -0.9856    0.3328    0.8733   -0.6277
    0.7240  260.6400   -0.9867    0.3209    0.8823   -0.6079
    0.7250  261.0000   -0.9877    0.3090    0.8910   -0.5878
    0.7260  261.3600   -0.9887    0.2970    0.8994   -0.5673
    0.7270  261.7200   -0.9896    0.2850    0.9075   -0.5464
    0.7280  262.0800   -0.9905    0.2730    0.9152   -0.5252
    0.7290  262.4400   -0.9913    0.2608    0.9227   -0.5036
    0.7300  262.8000   -0.9921    0.2487    0.9298   -0.4818
    0.7310  263.1600   -0.9929    0.2365    0.9365   -0.4596
    0.7320  263.5200   -0.9936    0.2243    0.9430   -0.4371
    0.7330  263.8800   -0.9943    0.2120    0.9491   -0.4144
    0.7340  264.2400   -0.9950    0.1997    0.9549   -0.3914
    0.7350  264.6000   -0.9956    0.1874    0.9603   -0.3681
    0.7360  264.9600   -0.9961    0.1750    0.9654   -0.3446
    0.7370  265.3200   -0.9967    0.1626    0.9701   -0.3209
    0.7380  265.6800   -0.9972    0.1502    0.9745   -0.2970
    0.7390  266.0400   -0.9976    0.1378    0.9786   -0.2730
    0.7400  266.4000   -0.9980    0.1253    0.9823   -0.2487
    0.7410  266.7600   -0.9984    0.1129    0.9856   -0.2243
    0.7420  267.1200   -0.9987    0.1004    0.9887   -0.1997
    0.7430  267.4800   -0.9990    0.0879    0.9913   -0.1750
    0.7440  267.8400   -0.9993    0.0753    0.9936   -0.1502
    0.7450  268.2000   -0.9995    0.0628    0.9956   -0.1253
    0.7460  268.5600   -0.9997    0.0502    0.9972   -0.1004
    0.7470  268.9200   -0.9998    0.0377    0.9984   -0.0753
    0.7480  269.2800   -0.9999    0.0251    0.9993   -0.0502
    0.7490  269.6400   -1.0000    0.0126    0.9998   -0.0251
    0.7500  270.0000   -1.0000    0.0000    1.0000    0.0000
    0.7510  270.3600   -1.0000   -0.0126    0.9998    0.0251
    0.7520  270.7200   -0.9999   -0.0251    0.9993    0.0502
    0.7530  271.0800   -0.9998   -0.0377    0.9984    0.0753
    0.7540  271.4400   -0.9997   -0.0502    0.9972    0.1004
    0.7550  271.8000   -0.9995   -0.0628    0.9956    0.1253
    0.7560  272.1600   -0.9993   -0.0753    0.9936    0.1502
    0.7570  272.5200   -0.9990   -0.0879    0.9913    0.1750
    0.7580  272.8800   -0.9987   -0.1004    0.9887    0.1997
    0.7590  273.2400   -0.9984   -0.1129    0.9856    0.2243
    0.7600  273.6000   -0.9980   -0.1253    0.9823    0.2487
    0.7610  273.9600   -0.9976   -0.1378    0.9786    0.2730
    0.7620  274.3200   -0.9972   -0.1502    0.9745    0.2970
    0.7630  274.6800   -0.9967   -0.1626    0.9701    0.3209
    0.7640  275.0400   -0.9961   -0.1750    0.9654    0.3446
    0.7650  275.4000   -0.9956   -0.1874    0.9603    0.3681
    0.7660  275.7600   -0.9950   -0.1997    0.9549    0.3914
    0.7670  276.1200   -0.9943   -0.2120    0.9491    0.4144
    0.7680  276.4800   -0.9936   -0.2243    0.9430    0.4371
    0.7690  276.8400   -0.9929   -0.2365    0.9365    0.4596
    0.7700  277.2000   -0.9921   -0.2487    0.9298    0.4818
    0.7710  277.5600   -0.9913   -0.2608    0.9227    0.5036
    0.7720  277.9200   -0.9905   -0.2730    0.9152    0.5252
    0.7730  278.2800   -0.9896   -0.2850    0.9075    0.5464
    0.7740  278.6400   -0.9887   -0.2970    0.8994    0.5673
    0.7750  279.0000   -0.9877   -0.3090    0.8910    0.5878
    0.7760  279.3600   -0.9867   -0.3209    0.8823    0.6079
    0.7770  279.7200   -0.9856   -0.3328    0.8733    0.6277
    0.7780  280.0800   -0.9846   -0.3446    0.8639    0.6471
    0.7790  280.4400   -0.9834   -0.3564    0.8543    0.6660
    0.7800  280.8000   -0.9823   -0.3681    0.8443    0.6845
    0.7810  281.1600   -0.9811   -0.3798    0.8341    0.7026
    0.7820  281.5200   -0.9799   -0.3914    0.8235    0.7203
    0.7830  281.8800   -0.9786   -0.4029    0.8127    0.7375
    0.7840  282.2400   -0.9773   -0.4144    0.8016    0.7543
    0.7850  282.6000   -0.9759   -0.4258    0.7902    0.7705
    0.7860  282.9600   -0.9745   -0.4371    0.7785    0.7863
    0.7870  283.3200   -0.9731   -0.4484    0.7665    0.8016
    0.7880  283.6800   -0.9716   -0.4596    0.7543    0.8163
    0.7890  284.0400   -0.9701   -0.4707    0.7417    0.8306
    0.7900  284.4000   -0.9686   -0.4818    0.7290    0.8443
    0.7910  284.7600   -0.9670   -0.4927    0.7159    0.8575
    0.7920  285.1200   -0.9654   -0.5036    0.7026    0.8702
    0.7930  285.4800   -0.9637   -0.5144    0.6891    0.8823
    0.7940  285.8400   -0.9620   -0.5252    0.6753    0.8938
    0.7950  286.2000   -0.9603   -0.5358    0.6613    0.9048
    0.7960  286.5600   -0.9585   -0.5464    0.6471    0.9152
    0.7970  286.9200   -0.9567   -0.5569    0.6326    0.9251
    0.7980  287.2800   -0.9549   -0.5673    0.6179    0.9343
    0.7990  287.6400   -0.9530   -0.5776    0.6029    0.9430
    0.8000  288.0000   -0.9511   -0.5878    0.5878    0.9511
    0.8010  288.3600   -0.9491   -0.5979    0.5724    0.9585
    0.8020  288.7200   -0.9471   -0.6079    0.5569    0.9654
    0.8030  289.0800   -0.9451   -0.6179    0.5411    0.9716
    0.8040  289.4400   -0.9430   -0.6277    0.5252    0.9773
    0.8050  289.8000   -0.9409   -0.6374    0.5090    0.9823
    0.8060  290.1600   -0.9387   -0.6471    0.4927    0.9867
    0.8070  290.5200   -0.9365   -0.6566    0.4762    0.9905
    0.8080  290.8800   -0.9343   -0.6660    0.4596    0.9936
    0.8090  291.2400   -0.9321   -0.6753    0.4428    0.9961
    0.8100  291.6000   -0.9298   -0.6845    0.4258    0.9980
    0.8110  291.9600   -0.9274   -0.6937    0.4086    0.9993
    0.8120  292.3200   -0.9251   -0.7026    0.3914    0.9999
    0.8130  292.6800   -0.9227   -0.7115    0.3740    0.9999
    0.8140  293.0400   -0.9202   -0.7203    0.3564    0.9993
    0.8150  293.4000   -0.9178   -0.7290    0.3387    0.9980
    0.8160  293.7600   -0.9152   -0.7375    0.3209    0.9961
    0.8170  294.1200   -0.9127   -0.7459    0.3030    0.9936
    0.8180  294.4800   -0.9101   -0.7543    0.2850    0.9905
    0.8190  294.8400   -0.9075   -0.7624    0.2669    0.9867
    0.8200  295.2000   -0.9048   -0.7705    0.2487    0.9823
    0.8210  295.5600   -0.9021   -0.7785    0.2304    0.9773
    0.8220  295.9200   -0.8994   -0.7863    0.2120    0.9716
    0.8230  296.2800   -0.8966   -0.7940    0.1935    0.9654
    0.8240  296.6400   -0.8938   -0.8016    0.1750    0.9585
    0.8250  297.0000   -0.8910   -0.8090    0.1564    0.9511
    0.8260  297.3600   -0.8881   -0.8163    0.1378    0.9430
    0.8270  297.7200   -0.8852   -0.8235    0.1191    0.9343
    0.8280  298.0800   -0.8823   -0.8306    0.1004    0.9251
    0.8290  298.4400   -0.8793   -0.8375    0.0816    0.9152
    0.8300  298.8000   -0.8763   -0.8443    0.0628    0.9048
    0.8310  299.1600   -0.8733   -0.8510    0.0440    0.8938
    0.8320  299.5200   -0.8702   -0.8575    0.0251    0.8823
    0.8330  299.8800   -0.8671   -0.8639    0.0063    0.8702
    0.8340  300.2400   -0.8639   -0.8702   -0.0126    0.8575
    0.8350  300.6000   -0.8607   -0.8763   -0.0314    0.8443
    0.8360  300.9600   -0.8575   -0.8823   -0.0502    0.8306
    0.8370  301.3200   -0.8543   -0.8881   -0.0691    0.8163
    0.8380  301.6800   -0.8510   -0.8938   -0.0879    0.8016
    0.8390  302.0400   -0.8477   -0.8994   -0.1066    0.7863
    0.8400  302.4000   -0.8443   -0.9048   -0.1253    0.7705
    0.8410  302.7600   -0.8409   -0.9101   -0.1440    0.7543
    0.8420  303.1200   -0.8375   -0.9152   -0.1626    0.7375
    0.8430  303.4800   -0.8341   -0.9202   -0.1812    0.7203
    0.8440  303.8400   -0.8306   -0.9251   -0.1997    0.7026
    0.8450  304.2000   -0.8271   -0.9298   -0.2181    0.6845
    0.8460  304.5600   -0.8235   -0.9343   -0.2365    0.6660
    0.8470  304.9200   -0.8200   -0.9387   -0.2548    0.6471
    0.8480  305.2800   -0.8163   -0.9430   -0.2730    0.6277
    0.8490  305.6400   -0.8127   -0.9471   -0.2910    0.6079
    0.8500  306.0000   -0.8090   -0.9511   -0.3090    0.5878
    0.8510  306.3600   -0.8053   -0.9549   -0.3269    0.5673
    0.8520  306.7200   -0.8016   -0.9585   -0.3446    0.5464
    0.8530  307.0800   -0.7978   -0.9620   -0.3623    0.5252
    0.8540  307.4400   -0.7940   -0.9654   -0.3798    0.5036
    0.8550  307.8000   -0.7902   -0.9686   -0.3971    0.4818
    0.8560  308.1600   -0.7863   -0.9716   -0.4144    0.4596
    0.8570  308.5200   -0.7824   -0.9745   -0.4315    0.4371
    0.8580  308.8800   -0.7785   -0.9773   -0.4484    0.4144
    0.8590  309.2400   -0.7745   -0.9799   -0.4652    0.3914
    0.8600  309.6000   -0.7705   -0.9823   -0.4818    0.3681
    0.8610  309.9600   -0.7665   -0.9846   -0.4982    0.3446
    0.8620  310.3200   -0.7624   -0.9867   -0.5144    0.3209
    0.8630  310.6800   -0.7584   -0.9887   -0.5305    0.2970
    0.8640  311.0400   -0.7543   -0.9905   -0.5464    0.2730
    0.8650  311.4000   -0.7501   -0.9921   -0.5621    0.2487
    0.8660  311.7600   -0.7459   -0.9936   -0.5776    0.2243
    0.8670  312.1200   -0.7417   -0.9950   -0.5929    0.1997
    0.8680  312.4800   -0.7375   -0.9961   -0.6079    0.1750
    0.8690  312.8400   -0.7333   -0.9972   -0.6228    0.1502
    0.8700  313.2000   -0.7290   -0.9980   -0.6374    0.1253
    0.8710  313.5600   -0.7247   -0.9987   -0.6518    0.1004
    0.8720  313.9200   -0.7203   -0.9993   -0.6660    0.0753
    0.8730  314.2800   -0.7159   -0.9997   -0.6800    0.0502
    0.8740  314.6400   -0.7115   -0.9999   -0.6937    0.0251
    0.8750  315.0000   -0.7071   -1.0000   -0.7071    0.0000
    0.8760  315.3600   -0.7026   -0.9999   -0.7203   -0.0251
    0.8770  315.7200   -0.6982   -0.9997   -0.7333   -0.0502
    0.8780  316.0800   -0.6937   -0.9993   -0.7459   -0.0753
    0.8790  316.4400   -0.6891   -0.9987   -0.7584   -0.1004
    0.8800  316.8000   -0.6845   -0.9980   -0.7705   -0.1253
    0.8810  317.1600   -0.6800   -0.9972   -0.7824   -0.1502
    0.8820  317.5200   -0.6753   -0.9961   -0.7940   -0.1750
    0.8830  317.8800   -0.6707   -0.9950   -0.8053   -0.1997
    0.8840  318.2400   -0.6660   -0.9936   -0.8163   -0.2243
    0.8850  318.6000   -0.6613   -0.9921   -0.8271   -0.2487
    0.8860  318.9600   -0.6566   -0.9905   -0.8375   -0.2730
    0.8870  319.3200   -0.6518   -0.9887   -0.8477   -0.2970
    0.8880  319.6800   -0.6471   -0.9867   -0.8575   -0.3209
    0.8890  320.0400   -0.6423   -0.9846   -0.8671   -0.3446
    0.8900  320.4000   -0.6374   -0.9823   -0.8763   -0.3681
    0.8910  320.7600   -0.6326   -0.9799   -0.8852   -0.3914
    0.8920  321.1200   -0.6277   -0.9773   -0.8938   -0.4144
    0.8930  321.4800   -0.6228   -0.9745   -0.9021   -0.4371
    0.8940  321.8400   -0.6179   -0.9716   -0.9101   -0.4596
    0.8950  322.2000   -0.6129   -0.9686   -0.9178   -0.4818
    0.8960  322.5600   -0.6079   -0.9654   -0.9251   -0.5036
    0.8970  322.9200   -0.6029   -0.9620   -0.9321   -0.5252
    0.8980  323.2800   -0.5979   -0.9585   -0.9387   -0.5464
    0.8990  323.6400   -0.5929   -0.9549   -0.9451   -0.5673
    0.9000  324.0000   -0.5878   -0.9511   -0.9511   -0.5878
    0.9010  324.3600   -0.5827   -0.9471   -0.9567   -0.6079
    0.9020  324.7200   -0.5776   -0.9430   -0.9620   -0.6277
    0.9030  325.0800   -0.5724   -0.9387   -0.9670   -0.6471
    0.9040  325.4400   -0.5673   -0.9343   -0.9716   -0.6660
    0.9050  325.8000   -0.5621   -0.9298   -0.9759   -0.6845
    0.9060  326.1600   -0.5569   -0.9251   -0.9799   -0.7026
    0.9070  326.5200   -0.5516   -0.9202   -0.9834   -0.7203
    0.9080  326.8800   -0.5464   -0.9152   -0.9867   -0.7375
    0.9090  327.2400   -0.5411   -0.9101   -0.9896   -0.7543
    0.9100  327.6000   -0.5358   -0.9048   -0.9921   -0.7705
    0.9110  327.9600   -0.5305   -0.8994   -0.9943   -0.7863
    0.9120  328.3200   -0.5252   -0.8938   -0.9961   -0.8016
    0.9130  328.6800   -0.5198   -0.8881   -0.9976   -0.8163
    0.9140  329.0400   -0.5144   -0.8823   -0.9987   -0.8306
    0.9150  329.4000   -0.5090   -0.8763   -0.9995   -0.8443
    0.9160  329.7600   -0.5036   -0.8702   -0.9999   -0.8575
    0.9170  330.1200   -0.4982   -0.8639   -1.0000   -0.8702
    0.9180  330.4800   -0.4927   -0.8575   -0.9997   -0.8823
    0.9190  330.8400   -0.4873   -0.8510   -0.9990   -0.8938
    0.9200  331.2000   -0.4818   -0.8443   -0.9980   -0.9048
    0.9210  331.5600   -0.4762   -0.8375   -0.9967   -0.9152
    0.9220  331.9200   -0.4707   -0.8306   -0.9950   -0.9251
    0.9230  332.2800   -0.4652   -0.8235   -0.9929   -0.9343
    0.9240  332.6400   -0.4596   -0.8163   -0.9905   -0.9430
    0.9250  333.0000   -0.4540   -0.8090   -0.9877   -0.9511
    0.9260  333.3600   -0.4484   -0.8016   -0.9846   -0.9585
    0.9270  333.7200   -0.4428   -0.7940   -0.9811   -0.9654
    0.9280  334.0800   -0.4371   -0.7863   -0.9773   -0.9716
    0.9290  334.4400   -0.4315   -0.7785   -0.9731   -0.9773
    0.9300  334.8000   -0.4258   -0.7705   -0.9686   -0.9823
    0.9310  335.1600   -0.4201   -0.7624   -0.9637   -0.9867
    0.9320  335.5200   -0.4144   -0.7543   -0.9585   -0.9905
    0.9330  335.8800   -0.4086   -0.7459   -0.9530   -0.9936
    0.9340  336.2400   -0.4029   -0.7375   -0.9471   -0.9961
    0.9350  336.6000   -0.3971   -0.7290   -0.9409   -0.9980
    0.9360  336.9600   -0.3914   -0.7203   -0.9343   -0.9993
    0.9370  337.3200   -0.3856   -0.7115   -0.9274   -0.9999
    0.9380  337.6800   -0.3798   -0.7026   -0.9202   -0.9999
    0.9390  338.0400   -0.3740   -0.6937   -0.9127   -0.9993
    0.9400  338.4000   -0.3681   -0.6845   -0.9048   -0.9980
    0.9410  338.7600   -0.3623   -0.6753   -0.8966   -0.9961
    0.9420  339.1200   -0.3564   -0.6660   -0.8881   -0.9936
    0.9430  339.4800   -0.3505   -0.6566   -0.8793   -0.9905
    0.9440  339.8400   -0.3446   -0.6471   -0.8702   -0.9867
    0.9450  340.2000   -0.3387   -0.6374   -0.8607   -0.9823
    0.9460  340.5600   -0.3328   -0.6277   -0.8510   -0.9773
    0.9470  340.9200   -0.3269   -0.6179   -0.8409   -0.9716
    0.9480  341.2800   -0.3209   -0.6079   -0.8306   -0.9654
    0.9490  341.6400   -0.3150   -0.5979   -0.8200   -0.9585
    0.9500  342.0000   -0.3090   -0.5878   -0.8090   -0.9511
    0.9510  342.3600   -0.3030   -0.5776   -0.7978   -0.9430
    0.9520  342.7200   -0.2970   -0.5673   -0.7863   -0.9343
    0.9530  343.0800   -0.2910   -0.5569   -0.7745   -0.9251
    0.9540  343.4400   -0.2850   -0.5464   -0.7624   -0.9152
    0.9550  343.8000   -0.2790   -0.5358   -0.7501   -0.9048
    0.9560  344.1600   -0.2730   -0.5252   -0.7375   -0.8938
    0.9570  344.5200   -0.2669   -0.5144   -0.7247   -0.8823
    0.9580  344.8800   -0.2608   -0.5036   -0.7115   -0.8702
    0.9590  345.2400   -0.2548   -0.4927   -0.6982   -0.8575
    0.9600  345.6000   -0.2487   -0.4818   -0.6845   -0.8443
    0.9610  345.9600   -0.2426   -0.4707   -0.6707   -0.8306
    0.9620  346.3200   -0.2365   -0.4596   -0.6566   -0.8163
    0.9630  346.6800   -0.2304   -0.4484   -0.6423   -0.8016
    0.9640  347.0400   -0.2243   -0.4371   -0.6277   -0.7863
    0.9650  347.4000   -0.2181   -0.4258   -0.6129   -0.7705
    0.9660  347.7600   -0.2120   -0.4144   -0.5979   -0.7543
    0.9670  348.1200   -0.2059   -0.4029   -0.5827   -0.7375
    0.9680  348.4800   -0.1997   -0.3914   -0.5673   -0.7203
    0.9690  348.8400   -0.1935   -0.3798   -0.5516   -0.7026
    0.9700  349.2000   -0.1874   -0.3681   -0.5358   -0.6845
    0.9710  349.5600   -0.1812   -0.3564   -0.5198   -0.6660
    0.9720  349.9200   -0.1750   -0.3446   -0.5036   -0.6471
    0.9730  350.2800   -0.1688   -0.3328   -0.4873   -0.6277
    0.9740  350.6400   -0.1626   -0.3209   -0.4707   -0.6079
    0.9750  351.0000   -0.1564   -0.3090   -0.4540   -0.5878
    0.9760  351.3600   -0.1502   -0.2970   -0.4371   -0.5673
    0.9770  351.7200   -0.1440   -0.2850   -0.4201   -0.5464
    0.9780  352.0800   -0.1378   -0.2730   -0.4029   -0.5252
    0.9790  352.4400   -0.1316   -0.2608   -0.3856   -0.5036
    0.9800  352.8000   -0.1253   -0.2487   -0.3681   -0.4818
    0.9810  353.1600   -0.1191   -0.2365   -0.3505   -0.4596
    0.9820  353.5200   -0.1129   -0.2243   -0.3328   -0.4371
    0.9830  353.8800   -0.1066   -0.2120   -0.3150   -0.4144
    0.9840  354.2400   -0.1004   -0.1997   -0.2970   -0.3914
    0.9850  354.6000   -0.0941   -0.1874   -0.2790   -0.3681
    0.9860  354.9600   -0.0879   -0.1750   -0.2608   -0.3446
    0.9870  355.3200   -0.0816   -0.1626   -0.2426   -0.3209
    0.9880  355.6800   -0.0753   -0.1502   -0.2243   -0.2970
    0.9890  356.0400   -0.0691   -0.1378   -0.2059   -0.2730
    0.9900  356.4000   -0.0628   -0.1253   -0.1874   -0.2487
    0.9910  356.7600   -0.0565   -0.1129   -0.1688   -0.2243
    0.9920  357.1200   -0.0502   -0.1004   -0.1502   -0.1997
    0.9930  357.4800   -0.0440   -0.0879   -0.1316   -0.1750
    0.9940  357.8400   -0.0377   -0.0753   -0.1129   -0.1502
    0.9950  358.2000   -0.0314   -0.0628   -0.0941   -0.1253
    0.9960  358.5600   -0.0251   -0.0502   -0.0753   -0.1004
    0.9970  358.9200   -0.0188   -0.0377   -0.0565   -0.0753
    0.9980  359.2800   -0.0126   -0.0251   -0.0377   -0.0502
    0.9990  359.6400   -0.0063   -0.0126   -0.0188   -0.0251
    1.0000  360.0000    0.0000    0.0000    0.0000    0.0000
